Folder: SSRL-Sulfur/data/03_maps/xrf

Note: data/03_maps/xrf/uscan_datalog.txt
BA_powders_map_2482_5_001.dat: dwell=10.0, pixels of -0.1 by 0.1 in 138 x 180 pts , elapsed time: 1615.6205831
BA_powders_map_refocused_2482_5_001.dat: dwell=10.0, pixels of -0.1 by 0.1 in 151 x 180 pts , elapsed time: 1677.1376106
BA1B-70m_H_initial_coarse_map_2490_0_001.dat: dwell=20.0, pixels of -0.025 by 0.025 in 87 x 138 pts , elapsed time: 946.2595209
BA1B-70m_H_2490map_2490_0_001.dat: dwell=20.0, pixels of -0.005 by 0.005 in 206 x 156 pts , elapsed time: 1417.5564795
BA1B_70m_H_MEmap_try2_2470_0_001.dat: dwell=40.0, pixels of -0.004 by 0.004 in 277 x 209 pts , elapsed time: 35774.994146
BA1B_70m_H_MEmap_try2_2470_4_001.dat: dwell=40.0, pixels of -0.004 by 0.004 in 277 x 209 pts , elapsed time: 35774.994146
BA1B_70m_H_MEmap_try2_2471_0_001.dat: dwell=40.0, pixels of -0.004 by 0.004 in 277 x 209 pts , elapsed time: 35774.994146
BA1B_70m_H_MEmap_try2_2471_6_001.dat: dwell=40.0, pixels of -0.004 by 0.004 in 277 x 209 pts , elapsed time: 35774.994146
BA1B_70m_H_MEmap_try2_2472_9_001.dat: dwell=40.0, pixels of -0.004 by 0.004 in 277 x 209 pts , elapsed time: 35774.994146
BA1B_70m_H_MEmap_try2_2474_2_001.dat: dwell=40.0, pixels of -0.004 by 0.004 in 277 x 209 pts , elapsed time: 35774.994146
BA1B_70m_H_MEmap_try2_2477_6_001.dat: dwell=40.0, pixels of -0.004 by 0.004 in 277 x 209 pts , elapsed time: 35774.994146
BA1B_70m_H_MEmap_try2_2482_6_001.dat: dwell=40.0, pixels of -0.004 by 0.004 in 277 x 209 pts , elapsed time: 35774.994146
BA1B_70m_H_MEmap_try2_2485_0_001.dat: dwell=40.0, pixels of -0.004 by 0.004 in 277 x 209 pts , elapsed time: 35774.994146
STANDARDS_powder_window_refocused_2485_0_001.dat: dwell=10.0, pixels of -0.1 by 0.1 in 108 x 148 pts , elapsed time: 1189.1594619
BA4A_150_G_ROI1_coarse_2485_0_002.dat: dwell=20.0, pixels of -0.025 by 0.025 in 133 x 117 pts , elapsed time: 927.2036428
BA4A_150_G_ROI1_MEmap_2470_0_001.dat: dwell=30.0, pixels of -0.005 by 0.005 in 650 x 151 pts , elapsed time: 29418.3105704
BA4A_150_G_ROI1_MEmap_2470_4_001.dat: dwell=30.0, pixels of -0.005 by 0.005 in 650 x 151 pts , elapsed time: 29418.3105704
BA4A_150_G_ROI1_MEmap_2471_0_001.dat: dwell=30.0, pixels of -0.005 by 0.005 in 650 x 151 pts , elapsed time: 29418.3105704
BA4A_150_G_ROI1_MEmap_2471_6_001.dat: dwell=30.0, pixels of -0.005 by 0.005 in 650 x 151 pts , elapsed time: 29418.3105704
BA4A_150_G_ROI1_MEmap_2473_5_001.dat: dwell=30.0, pixels of -0.005 by 0.005 in 650 x 151 pts , elapsed time: 29418.3105704
BA4A_150_G_ROI1_MEmap_2477_6_001.dat: dwell=30.0, pixels of -0.005 by 0.005 in 650 x 151 pts , elapsed time: 29418.3105704
BA4A_150_G_ROI1_MEmap_2482_6_001.dat: dwell=30.0, pixels of -0.005 by 0.005 in 650 x 151 pts , elapsed time: 29418.3105704
BA1B_110B_G_coarsemap_2485_0_001.dat: dwell=10.0, pixels of -0.025 by 0.025 in 75 x 61 pts , elapsed time: 354.8158207
BA1B_110B_G_MEmap_2470_0_001.dat: dwell=30.0, pixels of -0.004 by 0.004 in 312 x 226 pts , elapsed time: 27532.1279926
BA1B_110B_G_MEmap_2470_4_001.dat: dwell=30.0, pixels of -0.004 by 0.004 

Note: README.md
# SSRL-Sulfur

```
data/
├─ 01_averaged/
├─ 02_mu/
```

File: BA_powders_map_2482_5_001.dat
* Abscissa points :   138
* Ordinate points :   180
* BLANK LINE
* Data Channels :   15
* Data Labels : I0	I1	S.Ka	Na.Ka	Mg.Ka	Al.Ka	Si.Ka	P.Ka	Cl.Ka	ICR	OCR	TIME	I0STRM	I1STRM	LASER
* Comments:
* dwell time = 10.0
*
*
* BLANK LINE
* Abscissa points requested :
* 9.1785	9.0785	8.9785	8.8785	8.7785	8.6785	8.5785	8.4785	8.3785	8.2785	8.1785	8.0785	7.9785	7.8785	7.7785	7.6785	7.5785	7.4785	7.3785	7.2785	7.1785	7.0785	6.9785	6.8785	6.7785	6.6785	6.5785	6.4785	6.3785	6.2785	6.1785	6.0785	5.9785	5.8785	5.7785	5.6785	5.5785	5.4785	5.3785	5.2785	5.1785	5.0785	4.9785	4.8785	4.7785	4.6785	4.5785	4.4785	4.3785	4.2785	4.1785	4.0785	3.9785	3.8785	3.7785	3.6785	3.5785	3.4785	3.3785	3.2785	3.1785	3.0785	2.9785	2.8785	2.7785	2.6785	2.5785	2.4785	2.3785	2.2785	2.1785	2.0785	1.9785	1.8785	1.7785	1.6785	1.5785	1.4785	1.3785	1.2785	1.1785	1.0785	0.9785	0.8785	0.7785	0.6785	0.5785	0.4785	0.3785	0.2785	0.1785	0.0785	-0.0215	-0.1215	-0.2215	-0.3215	-0.4215	-0.5215	-0.6215	-0.7215	-0.8215	-0.9215	-1.0215	-1.1215	-1.2215	-1.3215	-1.4215	-1.5215	-1.6215	-1.7215	-1.8215	-1.9215	-2.0215	-2.1215	-2.2215	-2.3215	-2.4215	-2.5215	-2.6215	-2.7215	-2.8215	-2.9215	-3.0215	-3.1215	-3.2215	-3.3215	-3.4215	-3.5215	-3.6215	-3.7215	-3.8215	-3.9215	-4.0215	-4.1215	-4.2215	-4.3215	-4.4215	-4.5215
* BLANK LINE
* BLANK LINE
* Ordinate points requested :
* -11.0095	-10.9095	-10.8095	-10.7095	-10.6095	-10.5095	-10.4095	-10.3095	-10.2095	-10.1095	-10.0095	-9.9095	-9.8095	-9.7095	-9.6095	-9.5095	-9.4095	-9.3095	-9.2095	-9.1095	-9.0095	-8.9095	-8.8095	-8.7095	-8.6095	-8.5095	-8.4095	-8.3095	-8.2095	-8.1095	-8.0095	-7.9095	-7.8095	-7.7095	-7.6095	-7.5095	-7.4095	-7.3095	-7.2095	-7.1095	-7.0095	-6.9095	-6.8095	-6.7095	-6.6095	-6.5095	-6.4095	-6.3095	-6.2095	-6.1095	-6.0095	-5.9095	-5.8095	-5.7095	-5.6095	-5.5095	-5.4095	-5.3095	-5.2095	-5.1095	-5.0095	-4.9095	-4.8095	-4.7095	-4.6095	-4.5095	-4.4095	-4.3095	-4.2095	-4.1095	-4.0095	-3.9095	-3.8095	-3.7095	-3.6095	-3.5095	-3.4095	-3.3095	-3.2095	-3.1095	-3.0095	-2.9095	-2.8095	-2.7095	-2.6095	-2.5095	-2.4095	-2.3095	-2.2095	-2.1095	-2.0095	-1.9095	-1.8095	-1.7095	-1.6095	-1.5095	-1.4095	-1.3095	-1.2095	-1.1095	-1.0095	-0.9095	-0.8095	-0.7095	-0.6095	-0.5095	-0.4095	-0.3095	-0.2095	-0.1095	0.01	0.0905	0.1905	0.2905	0.3905	0.4905	0.5905	0.6905	0.7905	0.8905	0.9905	1.0905	1.1905	1.2905	1.3905	1.4905	1.5905	1.6905	1.7905	1.8905	1.9905	2.0905	2.1905	2.2905	2.3905	2.4905	2.5905	2.6905	2.7905	2.8905	2.9905	3.0905	3.1905	3.2905	3.3905	3.4905	3.5905	3.6905	3.7905	3.8905	3.9905	4.0905	4.1905	4.2905	4.3905	4.4905	4.5905	4.6905	4.7905	4.8905	4.9905	5.0905	5.1905	5.2905	5.3905	5.4905	5.5905	5.6905	5.7905	5.8905	5.9905	6.0905	6.1905	6.2905	6.3905	6.4905	6.5905	6.6905	6.7905	6.8905
* BLANK LINE
* BLANK LINE
* Energy points requested:
*   2482.5
* BLANK LINE
* DATA
-11.0095	9.1785	1	1	26193	910	1771	14397	57650	50826	4306	1566769	1125607	985771880	10	10	10
-10.9095	7.5785	1	1	101	4	7	26	131	117	37	5355	3843	2887048	0	0	0
-10.8095	5.9785	1	1	64	2	10	54	240	207	10	3923	2933	2869396	0	0	0
-10.7095	4.3785	1	1	47	2	1	6	23	21	30	4521	3221	2881356	0	0	0
-10.6095	2.7785	1	1	26	2	6	56	270	229	19	3804	2903	2880692	0	0	0
-10.5095	1.1785	1	1	65	3	6	24	131	103	45	5688	3968	2875556	0	0	0
-10.4095	-0.4215	1	1	83	2	0	2	4	9	55	4114	2933	2880200	0	0	0
-10.3095	-2.0215	1	1	101	4	1	2	25	25	42	5052	3577	2852196	0	0	0
-10.2095	-3.6215	1	1	88	0	0	2	15	20	63	2781	1994	2871252	0	0	0
-10.0095	8.5785	1	1	79	1	0	2	8	10	61	3306	2434	2786744	0	0	0
-9.9095	6.9785	1	1	81	5	1	13	39	51	49	4382	3032	2858292	0	0	0
-9.8095	5.3785	1	1	74	4	2	33	164	155	39	3830	2779	2874024	0	0	0
-9.7095	3.7785	1	1	44	1	2	11	102	87	19	4023	2842	2869588	0	0	0
-9.6095	2.1785	1	1	38	0	1	40	212	173	24	4451	3284	2873748	0	0	0
-9.5095	0.5785	1	1	73	3	0	2	66	82	44	3534	2588	2889044	0	0	0
-9.4095	-1.0215	1	1	87	2	2	0	8	2	44	4440	3197	2872276	0	0	0
-9.3095	-2.6215	1	1	76	4	2	0	9	8	51	3961	2653	2872100	0	0	0
-9.2095	-4.2215	1	1	84	1	0	0	2	8	59	2862	2052	2877524	0	0	0
-9.0095	7.9785	1	1	52	2	2	15	91	61	44	5379	3943	2837460	0	0	0
-8.9095	6.3785	1	1	66	3	1	3	13	15	59	3016	2181	2865012	0	0	0
-8.8095	4.7785	1	1	65	1	3	2	6	9	64	4110	3025	2871624	0	0	0
-8.7095	3.1785	1	1	66	2	3	26	104	72	44	4653	3309	2877780	0	0	0
-8.6095	1.5785	1	1	84	2	1	2	19	17	44	4657	3155	2884804	0	0	0
-8.5095	-0.0215	1	1	78	3	0	3	15	18	64	4078	2865	2871684	0	0	0
-8.4095	-1.6215	1	1	91	3	1	0	9	8	56	4447	3273	2896212	0	0	0
-8.3095	-3.2215	1	1	58	3	1	1	14	22	73	3129	2306	2901308	0	0	0
-8.1095	8.9785	1	1	28	2	5	49	232	246	21	5996	4404	3360792	0	0	0
-8.0095	7.3785	1	1	52	2	2	9	27	49	45	3894	2742	2865760	0	0	0
-7.9095	5.7785	1	1	104	1	1	2	6	11	71	3096	2205	2873128	0	0	0
-7.8095	4.1785	1	1	65	2	0	0	8	9	76	5055	3535	2873764	0	0	0
-7.7095	2.5785	1	1	104	4	2	37	142	144	25	4345	3116	2892188	0	0	0
-7.6095	0.9785	1	1	95	5	12	51	215	199	20	5021	3632	2879788	0	0	0
-7.5095	-0.6215	1	1	65	2	0	3	13	13	63	2874	2173	2895040	0	0	0
-7.4095	-2.2215	1	1	72	4	0	2	43	31	52	5251	3581	2881364	0	0	0
-7.3095	-3.8215	1	1	51	1	0	5	21	14	56	2416	1770	2158449	0	0	0
-7.1095	8.3785	1	1	15	1	4	68	288	183	11	4319	3076	2816648	0	0	0
-7.0095	6.7785	1	1	53	5	1	3	16	17	41	5585	3648	2875732	0	0	0
-6.9095	5.1785	1	1	118	3	5	32	112	134	33	5610	4002	2877120	0	0	0
-6.8095	3.5785	1	1	59	2	0	0	8	8	58	3523	2555	2897364	0	0	0
-6.7095	1.9785	1	1	101	4	4	58	210	175	9	5515	3909	2876068	0	0	0
-6.6095	0.3785	1	1	119	1	2	32	127	127	45	3844	2776	2894144	0	0	0
-6.5095	-1.2215	1	1	74	0	0	2	15	14	59	4416	3017	2902036	0	0	0
-6.4095	-2.8215	1	1	87	1	2	1	14	10	70	3020	2242	2886944	0	0	0
-6.3095	-4.4215	1	1	43	1	1	3	104	101	60	3379	2050	2890928	0	0	0
-6.1095	7.7785	1	1	35	5	8	53	175	170	25	4883	3497	2884476	0	0	0
-6.0095	6.1785	1	1	70	3	2	38	152	147	13	3371	2580	2893516	0	0	0
-5.9095	4.5785	1	1	119	4	5	34	141	110	18	6107	4287	2910340	0	0	0
-5.8095	2.9785	1	1	46	1	2	20	80	63	25	4239	3004	2872916	0	0	0
-5.7095	1.3785	1	1	108	5	7	51	202	140	16	4744	3478	2897608	0	0	0
-5.6095	-0.2215	1	1	76	3	2	1	13	9	70	5095	3438	2884288	0	0	0
-5.5095	-1.8215	1	1	93	2	0	4	8	8	73	3123	2234	2868372	0	0	0
-5.4095	-3.4215	1	1	64	5	2	2	10	13	43	4736	3257	2885784	0	0	0
-5.2095	8.7785	1	1	38	1	10	65	283	250	11	3957	2873	2887816	0	0	0
-5.1095	7.1785	1	1	57	1	4	2	14	12	43	4346	2790	2889108	0	0	0
-5.0095	5.5785	1	1	148	6	5	55	254	185	16	3943	2890	2901516	0	0	0
-4.9095	3.9785	1	1	135	4	2	17	71	46	50	5731	3863	2876844	0	0	0
-4.8095	2.3785	1	1	75	5	1	41	171	164	6	4626	3428	2886716	0	0	0
-4.7095	0.7785	1	1	95	3	9	60	251	190	11	5847	4153	2887316	0	0	0
-4.6095	-0.8215	1	1	77	2	2	2	9	12	64	3243	2275	2870352	0	0	0
-4.5095	-2.4215	1	1	76	0	1	1	14	9	60	3489	2630	2883900	0	0	0
-4.4095	-4.0215	1	1	56	2	0	3	8	8	52	3261	2422	2860752	0	0	0
-4.2095	8.1785	1	1	81	1	0	10	41	37	60	3216	2366	2851476	0	0	0
-4.1095	6.5785	1	1	74	2	1	3	19	9	55	4576	3251	2909840	0	0	0
-4.0095	4.9785	1	1	69	3	1	3	7	7	53	4573	3194	2861812	0	0	0
-3.9095	3.3785	1	1	51	1	0	5	20	20	43	2639	1889	2863888	0	0	0
-3.8095	1.7785	1	1	100	0	3	51	169	178	10	4000	3007	2872916	0	0	0
-3.7095	0.1785	1	1	90	4	6	14	39	57	47	4257	3165	2858784	0	0	0
-3.6095	-1.4215	1	1	76	1	0	1	3	4	65	2878	2086	2871700	0	0	0
-3.5095	-3.0215	1	1	94	1	0	0	4	5	72	5207	3642	2870724	0	0	0
-3.3095	9.1785	1	1	16987	536	281	1354	6215	6162	12581	1394871	983050	974514140	10	10	10
-3.2095	7.5785	1	1	51	2	6	35	158	173	40	3714	2877	2882600	0	0	0
[...]
0.5905	8.3785	1	1	48	1	9	44	203	163	14	4055	2837	2824624	0	0	0
0.6905	6.7785	1	1	79	1	1	5	28	24	37	4564	3038	2877208	0	0	0
0.7905	5.1785	1	1	102	3	2	12	53	30	36	5064	3383	2870292	0	0	0
0.8905	3.5785	1	1	113	6	12	57	202	194	10	3714	2708	2896516	0	0	0
0.9905	1.9785	1	1	75	1	4	30	133	105	30	4852	3349	2875112	0	0	0
1.0905	0.3785	1	1	61	1	4	41	182	153	3	4934	3457	2899972	0	0	0
1.1905	-1.2215	1	1	69	1	0	40	149	148	25	5207	3550	2891384	0	0	0
1.2905	-2.8215	1	1	77	1	0	1	3	8	62	3028	2115	2889440	0	0	0
1.3905	-4.4215	1	1	81	3	1	4	57	49	60	2840	2108	2889812	0	0	0
1.5905	7.7785	1	1	71	1	3	11	37	30	51	5634	4036	2877620	0	0	0
1.6905	6.1785	1	1	87	2	1	2	5	16	94	2464	1826	2894676	0	0	0
1.7905	4.5785	1	1	68	1	2	0	14	8	58	5064	3460	2908164	0	0	0
1.8905	2.9785	1	1	63	0	0	10	42	48	43	3141	2263	2872516	0	0	0
1.9905	1.3785	1	1	45	2	0	4	15	10	45	4037	2728	2887292	0	0	0
2.0905	-0.2215	1	1	58	4	3	40	166	149	14	5503	3800	2882900	0	0	0
2.1905	-1.8215	1	1	61	5	1	3	2	10	43	3554	2551	2878620	0	0	0
2.2905	-3.4215	1	1	60	3	2	0	28	30	55	2952	2155	2893844	0	0	0
2.4905	8.7785	1	1	83	0	0	4	20	17	65	3062	2250	2888828	0	0	0
2.5905	7.1785	1	1	91	2	1	7	15	16	59	4816	3247	2878676	0	0	0
2.6905	5.5785	1	1	86	1	0	2	6	3	52	3795	2613	2901012	0	0	0
2.7905	3.9785	1	1	86	2	0	1	6	10	51	5550	3853	2883580	0	0	0
2.8905	2.3785	1	1	59	1	0	0	2	5	56	4742	3439	2886836	0	0	0
2.9905	0.7785	1	1	50	5	2	11	68	59	37	3164	2413	2883284	0	0	0
3.0905	-0.8215	1	1	63	3	5	17	69	66	47	4974	3596	2872136	0	0	0
3.1905	-2.4215	1	1	74	1	1	8	16	26	58	3406	2558	2878140	0	0	0
3.2905	-4.0215	1	1	87	3	2	2	4	4	57	3120	2333	2864020	0	0	0
3.4905	8.1785	1	1	73	4	1	0	3	5	65	4090	2983	2847644	0	0	0
3.5905	6.5785	1	1	80	1	1	3	18	18	50	3715	2613	2900308	0	0	0
3.6905	4.9785	1	1	82	3	0	3	26	23	76	4787	3199	2861464	0	0	0
3.7905	3.3785	1	1	66	0	0	2	24	12	49	3867	2656	2874188	0	0	0
3.8905	1.7785	1	1	90	2	0	1	6	8	50	3846	2835	2876364	0	0	0
3.9905	0.1785	1	1	63	2	0	4	2	5	47	3509	2442	2869856	0	0	0
4.0905	-1.4215	1	1	62	2	4	47	224	213	26	4484	3275	2876488	0	0	0
4.1905	-3.0215	1	1	61	3	0	35	183	152	19	5777	4126	2858256	0	0	0
4.3905	9.1785	1	1	32095	662	355	1614	6565	6866	21369	1222454	878403	944583264	10	10	10
4.4905	7.5785	1	1	75	1	1	0	9	15	68	3277	2334	2883188	0	0	0
4.5905	5.9785	1	1	115	3	0	5	31	20	74	5604	3971	2864508	0	0	0
4.6905	4.3785	1	1	68	3	2	2	10	5	70	3497	2532	2889400	0	0	0
4.7905	2.7785	1	1	86	0	1	10	38	30	41	3450	2406	2878524	0	0	0
4.8905	1.1785	1	1	75	1	0	5	26	24	74	4580	3259	2871216	0	0	0
4.9905	-0.4215	1	1	62	2	0	1	10	8	80	2963	2284	2872908	0	0	0
5.0905	-2.0215	1	1	43	4	6	30	190	173	13	5786	4037	2859284	0	0	0
5.1905	-3.6215	1	1	62	1	2	40	128	128	42	3333	2444	2874720	0	0	0
5.3905	8.5785	1	1	67	2	1	0	9	5	54	3962	2756	2785580	0	0	0
5.4905	6.9785	1	1	119	1	11	54	218	182	15	4291	3117	2868700	0	0	0
5.5905	5.3785	1	1	86	3	0	4	21	19	53	2994	2127	2872852	0	0	0
5.6905	3.7785	1	1	97	2	1	25	127	109	25	2788	2055	2880468	0	0	0
5.7905	2.1785	1	1	109	1	5	51	208	163	26	4942	3497	2875692	0	0	0
5.8905	0.5785	1	1	74	5	0	0	7	10	63	3181	2326	2887700	0	0	0
5.9905	-1.0215	1	1	55	5	7	23	77	79	23	4141	2999	2865108	0	0	0
6.0905	-2.6215	1	1	41	2	9	39	198	170	6	4665	3270	2885220	0	0	0
6.1905	-4.2215	1	1	69	4	2	4	24	13	74	4444	3209	2875668	0	0	0
6.3905	7.9785	1	1	76	2	1	13	46	43	30	2851	2152	2831288	0	0	0
6.4905	6.3785	1	1	124	2	4	50	223	210	19	4186	3066	2868144	0	0	0
6.5905	4.7785	1	1	70	2	1	2	12	12	66	3716	2672	2870036	0	0	0
6.6905	3.1785	1	1	80	1	3	48	207	159	16	4252	2988	2872768	0	0	0
6.7905	1.5785	1	1	114	3	1	22	119	108	53	4978	3579	2883824	0	0	0
6.8905	-0.0215	1	1	94	3	2	2	51	35	62	3048	2153	2874352	0	0	0
6.8905	-4.5215	1	1	65	1	2	0	2	5	39	2419	1742	2140809	0	0	0

File: BA_powders_map_refocused_2482_5_001.dat
* Abscissa points :   151
* Ordinate points :   180
* BLANK LINE
* Data Channels :   15
* Data Labels : I0	I1	S.Ka	Na.Ka	Mg.Ka	Al.Ka	Si.Ka	P.Ka	Cl.Ka	ICR	OCR	TIME	I0STRM	I1STRM	LASER
* Comments:
* dwell time = 10.0
*
*
* BLANK LINE
* Abscissa points requested :
* 10.5013	10.4013	10.3013	10.2013	10.1013	10.0013	9.9013	9.8013	9.7013	9.6013	9.5013	9.4013	9.3013	9.2013	9.1013	9.0013	8.9013	8.8013	8.7013	8.6013	8.5013	8.4013	8.3013	8.2013	8.1013	8.0013	7.9013	7.8013	7.7013	7.6013	7.5013	7.4013	7.3013	7.2013	7.1013	7.0013	6.9013	6.8013	6.7013	6.6013	6.5013	6.4013	6.3013	6.2013	6.1013	6.0013	5.9013	5.8013	5.7013	5.6013	5.5013	5.4013	5.3013	5.2013	5.1013	5.0013	4.9013	4.8013	4.7013	4.6013	4.5013	4.4013	4.3013	4.2013	4.1013	4.0013	3.9013	3.8013	3.7013	3.6013	3.5013	3.4013	3.3013	3.2013	3.1013	3.0013	2.9013	2.8013	2.7013	2.6013	2.5013	2.4013	2.3013	2.2013	2.1013	2.0013	1.9013	1.8013	1.7013	1.6013	1.5013	1.4013	1.3013	1.2013	1.1013	1.0013	0.9013	0.8013	0.7013	0.6013	0.5013	0.4013	0.3013	0.2013	0.1013	0.0013	-0.0987	-0.1987	-0.2987	-0.3987	-0.4987	-0.5987	-0.6987	-0.7987	-0.8987	-0.9987	-1.0987	-1.1987	-1.2987	-1.3987	-1.4987	-1.5987	-1.6987	-1.7987	-1.8987	-1.9987	-2.0987	-2.1987	-2.2987	-2.3987	-2.4987	-2.5987	-2.6987	-2.7987	-2.8987	-2.9987	-3.0987	-3.1987	-3.2987	-3.3987	-3.4987	-3.5987	-3.6987	-3.7987	-3.8987	-3.9987	-4.0987	-4.1987	-4.2987	-4.3987	-4.4987
* BLANK LINE
* BLANK LINE
* Ordinate points requested :
* -11.0095	-10.9095	-10.8095	-10.7095	-10.6095	-10.5095	-10.4095	-10.3095	-10.2095	-10.1095	-10.0095	-9.9095	-9.8095	-9.7095	-9.6095	-9.5095	-9.4095	-9.3095	-9.2095	-9.1095	-9.0095	-8.9095	-8.8095	-8.7095	-8.6095	-8.5095	-8.4095	-8.3095	-8.2095	-8.1095	-8.0095	-7.9095	-7.8095	-7.7095	-7.6095	-7.5095	-7.4095	-7.3095	-7.2095	-7.1095	-7.0095	-6.9095	-6.8095	-6.7095	-6.6095	-6.5095	-6.4095	-6.3095	-6.2095	-6.1095	-6.0095	-5.9095	-5.8095	-5.7095	-5.6095	-5.5095	-5.4095	-5.3095	-5.2095	-5.1095	-5.0095	-4.9095	-4.8095	-4.7095	-4.6095	-4.5095	-4.4095	-4.3095	-4.2095	-4.1095	-4.0095	-3.9095	-3.8095	-3.7095	-3.6095	-3.5095	-3.4095	-3.3095	-3.2095	-3.1095	-3.0095	-2.9095	-2.8095	-2.7095	-2.6095	-2.5095	-2.4095	-2.3095	-2.2095	-2.1095	-2.0095	-1.9095	-1.8095	-1.7095	-1.6095	-1.5095	-1.4095	-1.3095	-1.2095	-1.1095	-1.0095	-0.9095	-0.8095	-0.7095	-0.6095	-0.5095	-0.4095	-0.3095	-0.2095	-0.1095	0.01	0.0905	0.1905	0.2905	0.3905	0.4905	0.5905	0.6905	0.7905	0.8905	0.9905	1.0905	1.1905	1.2905	1.3905	1.4905	1.5905	1.6905	1.7905	1.8905	1.9905	2.0905	2.1905	2.2905	2.3905	2.4905	2.5905	2.6905	2.7905	2.8905	2.9905	3.0905	3.1905	3.2905	3.3905	3.4905	3.5905	3.6905	3.7905	3.8905	3.9905	4.0905	4.1905	4.2905	4.3905	4.4905	4.5905	4.6905	4.7905	4.8905	4.9905	5.0905	5.1905	5.2905	5.3905	5.4905	5.5905	5.6905	5.7905	5.8905	5.9905	6.0905	6.1905	6.2905	6.3905	6.4905	6.5905	6.6905	6.7905	6.8905
* BLANK LINE
* BLANK LINE
* Energy points requested:
*   2482.5
* BLANK LINE
* DATA
-11.0095	10.5013	1	1	9407	304	90	321	1228	1523	6598	1303673	917422	983058784	10	10	10
-10.9095	9.0013	1	1	43	2	5	28	103	137	8	3078	2339	2858736	0	0	0
-10.8095	7.5013	1	1	38	3	1	6	18	26	35	3874	2716	2885988	0	0	0
-10.7095	6.0013	1	1	42	1	12	50	206	147	11	5735	4035	2887792	0	0	0
-10.6095	4.5013	1	1	22	2	0	4	16	9	17	3849	2642	2885528	0	0	0
-10.5095	3.0013	1	1	20	2	4	42	167	142	6	4487	3273	2890996	0	0	0
-10.4095	1.5013	1	1	27	1	0	18	77	68	25	4525	3292	2887444	0	0	0
-10.3095	0.0013	1	1	35	1	0	0	3	7	34	3052	2177	2863624	0	0	0
-10.2095	-1.4987	1	1	46	2	0	1	7	12	20	5242	3531	2860756	0	0	0
-10.1095	-2.9987	1	1	47	0	0	0	12	13	21	2421	1772	2858904	0	0	0
-10.0095	-4.4987	1	1	0	0	0	0	0	0	0	0	0	0	0	0	0
-9.8095	9.1013	1	1	32	2	1	2	3	4	22	4775	3164	2888052	0	0	0
-9.7095	7.6013	1	1	29	1	0	1	6	3	32	2975	2221	2899516	0	0	0
-9.6095	6.1013	1	1	30	1	5	28	187	159	6	4714	3296	2898100	0	0	0
-9.5095	4.6013	1	1	21	0	2	4	12	7	12	3330	2395	2897584	0	0	0
-9.4095	3.1013	1	1	9	2	2	29	135	105	13	3431	2440	2888404	0	0	0
-9.3095	1.6013	1	1	39	2	1	1	7	6	32	5462	3684	2879772	0	0	0
-9.2095	0.1013	1	1	39	1	0	3	17	20	20	3491	2415	2887508	0	0	0
-9.1095	-1.3987	1	1	38	1	1	0	6	11	27	4829	3327	2882168	0	0	0
-9.0095	-2.8987	1	1	35	1	0	0	1	2	39	4448	3014	2885796	0	0	0
-8.9095	-4.3987	1	1	7	0	0	0	0	0	5	0	0	0	0	0	0
-8.7095	9.2013	1	1	25	2	4	21	127	99	7	5620	3668	2870184	0	0	0
-8.6095	7.7013	1	1	23	1	0	10	33	24	13	3114	2130	2883220	0	0	0
-8.5095	6.2013	1	1	25	1	0	0	2	4	20	3315	2261	2886248	0	0	0
-8.4095	4.7013	1	1	39	1	0	1	7	2	34	4242	2931	2867068	0	0	0
-8.3095	3.2013	1	1	43	1	0	4	18	13	30	3058	2218	2873968	0	0	0
-8.2095	1.7013	1	1	61	2	0	1	15	9	34	4780	3302	2863036	0	0	0
-8.1095	0.2013	1	1	35	1	2	9	30	22	21	4382	3083	2856800	0	0	0
-8.0095	-1.2987	1	1	26	0	0	0	11	3	29	2867	1999	2865544	0	0	0
-7.9095	-2.7987	1	1	26	2	1	0	18	14	26	4983	3561	2880124	0	0	0
-7.8095	-4.2987	1	1	41	2	0	0	4	2	23	1663	1684	1438734	0	0	0
-7.6095	9.3013	1	1	16	1	1	34	159	127	8	5730	3950	2885512	0	0	0
-7.5095	7.8013	1	1	31	2	1	9	56	60	23	4301	3127	2881916	0	0	0
-7.4095	6.3013	1	1	44	0	0	2	19	9	25	4180	2947	2883548	0	0	0
-7.3095	4.8013	1	1	30	4	0	0	34	20	23	4430	2993	2865784	0	0	0
-7.2095	3.3013	1	1	35	1	1	8	24	45	21	3977	2978	2868484	0	0	0
-7.1095	1.8013	1	1	57	1	1	28	119	121	9	4917	3339	2871108	0	0	0
-7.0095	0.3013	1	1	40	1	1	5	8	10	17	3153	2202	2889028	0	0	0
-6.9095	-1.1987	1	1	39	2	2	1	8	5	22	3870	2783	2899424	0	0	0
-6.8095	-2.6987	1	1	36	1	0	0	4	4	39	3889	2635	2896892	0	0	0
-6.7095	-4.1987	1	1	16	2	0	7	48	44	14	3240	2176	2165319	0	0	0
-6.5095	9.4013	1	1	13	4	6	37	181	156	12	5352	3710	2843204	0	0	0
-6.4095	7.9013	1	1	34	3	3	24	130	77	12	5526	3933	2864336	0	0	0
-6.3095	6.4013	1	1	67	4	5	28	94	88	4	4368	3175	2858704	0	0	0
-6.2095	4.9013	1	1	86	5	3	33	103	81	13	4467	3123	2860876	0	0	0
-6.1095	3.4013	1	1	41	2	1	9	21	21	25	4806	3365	2877332	0	0	0
-6.0095	1.9013	1	1	76	0	3	26	103	141	7	3764	2715	2889936	0	0	0
-5.9095	0.4013	1	1	51	0	2	13	48	48	20	3466	2436	2898172	0	0	0
-5.8095	-1.0987	1	1	36	1	0	1	29	36	33	4605	3262	2869784	0	0	0
-5.7095	-2.5987	1	1	39	3	0	0	5	7	31	3678	2518	2875804	0	0	0
-5.6095	-4.0987	1	1	33	0	1	4	46	32	15	4021	1854	2154927	0	0	0
-5.4095	9.5013	1	1	16	2	5	28	141	110	4	4233	3094	2818992	0	0	0
-5.3095	8.0013	1	1	26	1	4	31	90	83	21	4715	3226	2862436	0	0	0
-5.2095	6.5013	1	1	169	0	2	25	74	64	17	3271	2353	2860404	0	0	0
-5.1095	5.0013	1	1	55	2	4	22	96	82	10	3515	2406	2888976	0	0	0
-5.0095	3.5013	1	1	29	1	0	1	9	7	18	2839	2048	2891096	0	0	0
-4.9095	2.0013	1	1	72	3	2	33	154	112	8	2971	2239	2881036	0	0	0
-4.8095	0.5013	1	1	47	2	3	9	48	56	25	3452	2509	2871360	0	0	0
-4.7095	-0.9987	1	1	34	0	0	0	3	4	29	4296	3117	2870788	0	0	0
-4.6095	-2.4987	1	1	46	2	0	0	9	4	34	3680	2602	2871200	0	0	0
-4.5095	-3.9987	1	1	63	3	0	2	8	7	34	4395	3066	2871304	0	0	0
-4.3095	9.6013	1	1	41	3	1	2	10	10	38	4572	3133	2830660	0	0	0
-4.2095	8.1013	1	1	32	0	0	2	14	10	32	3755	2643	2895132	0	0	0
-4.1095	6.6013	1	1	44	1	2	2	9	15	27	3968	2808	2913248	0	0	0
-4.0095	5.1013	1	1	29	0	0	0	3	8	13	3055	2157	2903824	0	0	0
-3.9095	3.6013	1	1	25	2	0	4	11	9	17	3891	2596	2893624	0	0	0
-3.8095	2.1013	1	1	52	2	2	25	89	97	8	4267	2996	2892596	0	0	0
-3.7095	0.6013	1	1	49	2	2	17	44	50	20	4688	3334	2893348	0	0	0
-3.6095	-0.8987	1	1	48	3	0	0	2	5	28	4288	3029	2893224	0	0	0
-3.5095	-2.3987	1	1	38	1	0	0	1	2	33	3524	2492	2894864	0	0	0
-3.4095	-3.8987	1	1	42	0	1	0	4	4	25	5649	3809	2906844	0	0	0
-3.2095	9.7013	1	1	24	2	0	1	5	7	19	3277	2402	2823152	0	0	0
[...]
0.4905	4.0013	1	1	89	2	6	27	157	122	14	4621	3202	2873724	0	0	0
0.5905	2.5013	1	1	57	3	3	29	114	83	13	4091	2806	2871320	0	0	0
0.6905	1.0013	1	1	38	0	2	19	90	62	11	3790	2722	2878240	0	0	0
0.7905	-0.4987	1	1	39	1	3	29	110	87	5	4471	3191	2864844	0	0	0
0.8905	-1.9987	1	1	43	0	0	2	1	1	33	3055	2262	2854484	0	0	0
0.9905	-3.4987	1	1	33	0	0	1	6	5	17	3640	2603	2866620	0	0	0
1.1905	10.1013	1	1	49	0	0	12	64	35	24	5953	4169	2878996	0	0	0
1.2905	8.6013	1	1	27	3	4	28	114	101	16	4245	3106	2899228	0	0	0
1.3905	7.1013	1	1	35	2	0	0	0	4	24	3231	2315	2896600	0	0	0
1.4905	5.6013	1	1	31	0	0	0	5	5	24	4720	3362	2891108	0	0	0
1.5905	4.1013	1	1	50	4	1	18	84	100	12	3952	2959	2890964	0	0	0
1.6905	2.6013	1	1	43	2	0	10	29	19	23	4546	3224	2893984	0	0	0
1.7905	1.1013	1	1	21	0	3	16	48	46	11	4143	2937	2887196	0	0	0
1.8905	-0.3987	1	1	48	4	4	20	134	135	4	5182	3761	2891444	0	0	0
1.9905	-1.8987	1	1	33	1	0	0	2	2	29	3250	2347	2901664	0	0	0
2.0905	-3.3987	1	1	56	5	0	1	13	9	33	5661	4030	2902040	0	0	0
2.2905	10.2013	1	1	44	2	0	1	3	6	17	3755	2485	3062032	0	0	0
2.3905	8.7013	1	1	43	2	0	5	12	6	25	4249	2879	2867988	0	0	0
2.4905	7.2013	1	1	48	0	1	1	3	3	29	3549	2479	2873428	0	0	0
2.5905	5.7013	1	1	53	1	0	1	2	3	23	3749	2624	2874780	0	0	0
2.6905	4.2013	1	1	32	1	0	0	1	4	21	4075	2959	2861080	0	0	0
2.7905	2.7013	1	1	35	0	0	0	1	2	28	4417	3145	2858024	0	0	0
2.8905	1.2013	1	1	38	1	1	6	31	16	21	4266	3067	2877192	0	0	0
2.9905	-0.2987	1	1	31	0	2	20	63	66	16	3524	2627	2868508	0	0	0
3.0905	-1.7987	1	1	35	1	0	0	2	7	32	4346	3078	2875964	0	0	0
3.1905	-3.2987	1	1	35	1	1	4	4	14	29	3290	2385	2862044	0	0	0
3.3905	10.3013	1	1	69	2	0	0	3	8	37	3897	2808	3411656	0	0	0
3.4905	8.8013	1	1	38	2	1	0	3	5	26	4432	3206	2883632	0	0	0
3.5905	7.3013	1	1	33	1	0	0	2	5	17	4206	2970	2882568	0	0	0
3.6905	5.8013	1	1	40	0	0	1	15	13	22	3300	2337	2866376	0	0	0
3.7905	4.3013	1	1	41	1	1	0	3	8	22	3976	2857	2873436	0	0	0
3.8905	2.8013	1	1	27	0	2	17	35	36	9	4095	2878	2878824	0	0	0
3.9905	1.3013	1	1	27	0	0	0	3	2	32	4388	2961	2889536	0	0	0
4.0905	-0.1987	1	1	40	3	0	0	7	3	25	5098	3459	2897568	0	0	0
4.1905	-1.6987	1	1	19	2	1	26	137	115	6	5192	3675	2907068	0	0	0
4.2905	-3.1987	1	1	39	0	4	21	85	61	26	4426	3076	2905348	0	0	0
4.4905	10.4013	1	1	100	2	7	22	114	87	19	7772	5349	3898760	0	0	0
4.5905	8.9013	1	1	34	0	1	2	8	4	25	4107	2890	2856028	0	0	0
4.6905	7.4013	1	1	59	1	2	13	40	52	27	5037	3645	2870096	0	0	0
4.7905	5.9013	1	1	52	0	0	0	7	6	23	3586	2568	2875956	0	0	0
4.8905	4.4013	1	1	45	0	0	3	9	13	35	3244	2293	2877040	0	0	0
4.9905	2.9013	1	1	36	4	1	8	39	32	17	4967	3192	2892564	0	0	0
5.0905	1.4013	1	1	40	1	1	8	40	32	20	4419	3085	2892016	0	0	0
5.1905	-0.0987	1	1	39	3	1	1	4	8	50	3560	2736	2888920	0	0	0
5.2905	-1.5987	1	1	30	1	3	31	135	117	6	3883	2701	2877304	0	0	0
5.3905	-3.0987	1	1	35	2	2	40	182	134	10	3494	2734	2862568	0	0	0
5.5905	10.5013	1	1	34416	970	1713	13615	57208	50483	3394	1586394	1138870	957386572	10	10	10
5.6905	9.0013	1	1	38	0	0	2	4	5	33	3427	2272	2859856	0	0	0
5.7905	7.5013	1	1	65	0	2	28	130	93	10	4163	2822	2882156	0	0	0
5.8905	6.0013	1	1	63	4	0	22	111	61	17	4096	2770	2890176	0	0	0
5.9905	4.5013	1	1	31	1	0	1	15	8	10	5295	3592	2871064	0	0	0
6.0905	3.0013	1	1	60	2	7	27	123	126	7	4159	3092	2893980	0	0	0
6.1905	1.5013	1	1	37	1	0	0	4	2	21	3404	2444	2881948	0	0	0
6.2905	0.0013	1	1	36	1	0	1	12	15	18	4438	3053	2864336	0	0	0
6.3905	-1.4987	1	1	24	3	4	24	107	108	6	4275	3196	2861660	0	0	0
6.4905	-2.9987	1	1	34	1	1	34	116	141	5	3545	2386	2856596	0	0	0
6.5905	-4.4987	1	1	0	0	0	0	0	0	0	0	0	713302	0	0	0
6.7905	9.1013	1	1	40	2	1	1	1	2	14	5089	3428	2890196	0	0	0
6.8905	7.6013	1	1	86	2	3	29	122	96	15	5904	4079	2903240	0	0	0
6.8905	-4.4987	1	1	0	0	0	0	0	0	0	0	0	0	0	0	0