Folder: SSRL-Sulfur/data/03_maps/xrf (part 2)

File: STANDARDS_powder_window_refocused_2485_0_001.dat
* Abscissa points :   108
* Ordinate points :   148
* BLANK LINE
* Data Channels :   16
* Data Labels : I0	I1	S.Ka	Na.Ka	Mg.Ka	Al.Ka	Si.Ka	P.Ka	Cl.Ka	Pn.Ka	ICR	OCR	TIME	I0STRM	I1STRM	LASER
* Comments:
* dwell time = 10.0
*
*
* BLANK LINE
* Abscissa points requested :
* 8.4823	8.3823	8.2823	8.1823	8.0823	7.9823	7.8823	7.7823	7.6823	7.5823	7.4823	7.3823	7.2823	7.1823	7.0823	6.9823	6.8823	6.7823	6.6823	6.5823	6.4823	6.3823	6.2823	6.1823	6.0823	5.9823	5.8823	5.7823	5.6823	5.5823	5.4823	5.3823	5.2823	5.1823	5.0823	4.9823	4.8823	4.7823	4.6823	4.5823	4.4823	4.3823	4.2823	4.1823	4.0823	3.9823	3.8823	3.7823	3.6823	3.5823	3.4823	3.3823	3.2823	3.1823	3.0823	2.9823	2.8823	2.7823	2.6823	2.5823	2.4823	2.3823	2.2823	2.1823	2.0823	1.9823	1.8823	1.7823	1.6823	1.5823	1.4823	1.3823	1.2823	1.1823	1.0823	0.9823	0.8823	0.7823	0.6823	0.5823	0.4823	0.3823	0.2823	0.1823	0.0823	-0.0177	-0.1177	-0.2177	-0.3177	-0.4177	-0.5177	-0.6177	-0.7177	-0.8177	-0.9177	-1.0177	-1.1177	-1.2177	-1.3177	-1.4177	-1.5177	-1.6177	-1.7177	-1.8177	-1.9177	-2.0177	-2.1177	-2.2177
* BLANK LINE
* BLANK LINE
* Ordinate points requested :
* -8.5922	-8.4922	-8.3922	-8.2922	-8.1922	-8.0922	-7.9922	-7.8922	-7.7922	-7.6922	-7.5922	-7.4922	-7.3922	-7.2922	-7.1922	-7.0922	-6.9922	-6.8922	-6.7922	-6.6922	-6.5922	-6.4922	-6.3922	-6.2922	-6.1922	-6.0922	-5.9922	-5.8922	-5.7922	-5.6922	-5.5922	-5.4922	-5.3922	-5.2922	-5.1922	-5.0922	-4.9922	-4.8922	-4.7922	-4.6922	-4.5922	-4.4922	-4.3922	-4.2922	-4.1922	-4.0922	-3.9922	-3.8922	-3.7922	-3.6922	-3.5922	-3.4922	-3.3922	-3.2922	-3.1922	-3.0922	-2.9922	-2.8922	-2.7922	-2.6922	-2.5922	-2.4922	-2.3922	-2.2922	-2.1922	-2.0922	-1.9922	-1.8922	-1.7922	-1.6922	-1.5922	-1.4922	-1.3922	-1.2922	-1.1922	-1.0922	-0.9922	-0.8922	-0.7922	-0.6922	-0.5922	-0.4922	-0.3922	-0.2922	-0.1922	-0.0922	0.01	0.1078	0.2078	0.3078	0.4078	0.5078	0.6078	0.7078	0.8078	0.9078	1.0078	1.1078	1.2078	1.3078	1.4078	1.5078	1.6078	1.7078	1.8078	1.9078	2.0078	2.1078	2.2078	2.3078	2.4078	2.5078	2.6078	2.7078	2.8078	2.9078	3.0078	3.1078	3.2078	3.3078	3.4078	3.5078	3.6078	3.7078	3.8078	3.9078	4.0078	4.1078	4.2078	4.3078	4.4078	4.5078	4.6078	4.7078	4.8078	4.9078	5.0078	5.1078	5.2078	5.3078	5.4078	5.5078	5.6078	5.7078	5.8078	5.9078	6.0078	6.1078
* BLANK LINE
* BLANK LINE
* Energy points requested:
*   2485.0
* BLANK LINE
* DATA
-8.5922	8.4823	1	1	14697	1015	15511	7599	130545	6202	3475	697	1625880	1165268	962738352	10	10	10
-8.5922	-1.5177	1	1	34	1	0	1	1	0	32	0	3048	2153	2860468	0	0	0
-8.4922	-0.7177	1	1	40	0	0	3	5	1	30	1	4204	2943	2891792	0	0	0
-8.3922	0.0823	1	1	51	0	0	0	3	0	22	0	4852	3529	2879656	0	0	0
-8.2922	0.8823	1	1	45	0	0	1	3	2	34	1	3919	2757	2886204	0	0	0
-8.1922	1.6823	1	1	37	2	2	2	9	2	38	0	3564	2630	2877820	0	0	0
-8.0922	2.4823	1	1	42	3	1	0	8	5	23	5	4169	2767	2876908	0	0	0
-7.9922	3.2823	1	1	50	0	3	2	9	4	24	3	3359	2350	2872776	0	0	0
-7.8922	4.0823	1	1	39	2	6	3	52	6	19	2	5592	3907	2894352	0	0	0
-7.7922	4.8823	1	1	33	2	44	32	385	22	7	2	5119	3547	2870812	0	0	0
-7.6922	5.6823	1	1	27	2	35	16	358	17	10	1	3871	2824	2878760	0	0	0
-7.5922	6.4823	1	1	31	1	31	9	220	8	14	1	5652	3814	2856716	0	0	0
-7.4922	7.2823	1	1	37	1	4	2	45	2	32	0	2586	1898	2860060	0	0	0
-7.3922	8.0823	1	1	61	4	44	16	455	15	10	0	4901	3543	2887556	0	0	0
-7.3922	-1.9177	1	1	52	2	3	0	10	3	31	1	3479	2430	2886696	0	0	0
-7.2922	-1.1177	1	1	27	0	0	0	7	1	37	0	3516	2595	2877788	0	0	0
-7.1922	-0.3177	1	1	53	1	1	2	5	5	29	2	4043	2882	2880464	0	0	0
-7.0922	0.4823	1	1	33	2	0	0	9	1	23	0	3371	2351	2860584	0	0	0
-6.9922	1.2823	1	1	34	2	2	1	7	3	31	0	5640	3854	2886492	0	0	0
-6.8922	2.0823	1	1	55	2	0	1	13	1	28	0	3258	2333	2882384	0	0	0
-6.7922	2.8823	1	1	53	1	2	0	2	2	31	0	4300	3001	2861488	0	0	0
-6.6922	3.6823	1	1	59	1	1	4	9	4	22	1	4458	3088	2882416	0	0	0
-6.5922	4.4823	1	1	44	2	9	4	85	3	25	1	4428	3178	2875544	0	0	0
-6.4922	5.2823	1	1	43	0	20	9	194	18	16	1	3482	2533	2888216	0	0	0
-6.3922	6.0823	1	1	29	2	21	9	145	9	18	3	5002	3476	2905168	0	0	0
-6.2922	6.8823	1	1	35	3	6	6	79	6	20	1	4896	3237	2860484	0	0	0
-6.1922	7.6823	1	1	32	3	20	7	127	11	24	0	4908	3438	2826556	0	0	0
-6.0922	8.4823	1	1	13547	650	9360	3920	82164	3986	3178	455	1435654	1030668	970741112	10	10	10
-6.0922	-1.5177	1	1	36	1	0	1	2	0	25	0	5135	3392	2860508	0	0	0
-5.9922	-0.7177	1	1	41	2	0	0	1	2	29	2	3168	2265	2904568	0	0	0
-5.8922	0.0823	1	1	46	2	3	0	5	0	37	0	3625	2552	2872628	0	0	0
-5.7922	0.8823	1	1	44	3	1	1	0	1	29	0	5110	3601	2875812	0	0	0
-5.6922	1.6823	1	1	29	4	0	1	0	2	31	1	3372	2413	2876148	0	0	0
-5.5922	2.4823	1	1	69	1	0	1	1	4	24	3	4212	2843	2883328	0	0	0
-5.4922	3.2823	1	1	45	0	2	1	6	4	28	4	4893	3544	2876832	0	0	0
-5.3922	4.0823	1	1	60	2	3	1	6	2	22	1	3695	2621	2890776	0	0	0
-5.2922	4.8823	1	1	62	1	1	4	23	1	21	0	3638	2498	2865332	0	0	0
-5.1922	5.6823	1	1	67	3	4	1	39	9	18	3	3690	2649	2880816	0	0	0
-5.0922	6.4823	1	1	48	0	3	1	28	0	36	0	2971	2085	2854600	0	0	0
-4.9922	7.2823	1	1	62	0	2	3	26	3	25	2	3832	2658	2859296	0	0	0
-4.8922	8.0823	1	1	46	1	2	4	12	2	29	0	3641	2627	2885236	0	0	0
-4.8922	-1.9177	1	1	30	0	0	1	7	1	24	1	3048	2229	2888160	0	0	0
-4.7922	-1.1177	1	1	35	2	0	0	5	1	21	1	5212	3637	2880644	0	0	0
-4.6922	-0.3177	1	1	42	0	0	0	6	1	34	1	4104	2614	2883924	0	0	0
-4.5922	0.4823	1	1	30	1	0	0	0	1	23	1	4325	3020	2850932	0	0	0
-4.4922	1.2823	1	1	35	1	1	0	0	2	18	1	4519	3223	2881880	0	0	0
-4.3922	2.0823	1	1	55	1	0	2	5	1	29	1	3234	2277	2873364	0	0	0
-4.2922	2.8823	1	1	58	1	1	0	2	1	23	0	4295	2968	2858932	0	0	0
-4.1922	3.6823	1	1	71	2	1	9	14	3	31	1	5451	3652	2871388	0	0	0
-4.0922	4.4823	1	1	66	1	7	5	26	5	13	2	3217	2232	2867156	0	0	0
-3.9922	5.2823	1	1	62	1	3	7	35	9	34	4	3915	2697	2880924	0	0	0
-3.8922	6.0823	1	1	47	1	4	10	26	3	33	2	3240	2409	2902792	0	0	0
-3.7922	6.8823	1	1	42	1	9	1	36	6	22	0	4354	3049	2860584	0	0	0
-3.6922	7.6823	1	1	61	2	2	0	22	2	24	0	4385	3073	2824116	0	0	0
-3.5922	8.4823	1	1	15042	430	358	594	2683	731	9318	342	1382880	967760	946440064	10	10	10
-3.5922	-1.5177	1	1	37	1	0	0	0	3	28	0	3082	2163	2853344	0	0	0
-3.4922	-0.7177	1	1	48	0	0	2	2	3	27	0	4965	3531	2902364	0	0	0
-3.3922	0.0823	1	1	22	0	7	3	44	2	30	0	3814	2731	2872020	0	0	0
-3.2922	0.8823	1	1	42	1	3	2	1	1	20	0	3434	2410	2892448	0	0	0
-3.1922	1.6823	1	1	41	1	0	2	1	3	32	1	4121	2904	2873720	0	0	0
-3.0922	2.4823	1	1	46	1	0	1	3	3	21	1	3886	2804	2881300	0	0	0
-2.9922	3.2823	1	1	52	2	0	1	9	0	30	1	3188	2329	2881496	0	0	0
-2.8922	4.0823	1	1	38	1	1	1	10	3	29	0	3563	2552	2901944	0	0	0
-2.7922	4.8823	1	1	63	3	1	4	23	1	24	0	4528	3101	2860328	0	0	0
-2.6922	5.6823	1	1	68	1	3	4	27	2	30	0	5063	3407	2885716	0	0	0
-2.5922	6.4823	1	1	56	3	3	8	30	1	29	1	4904	3431	2855212	0	0	0
-2.4922	7.2823	1	1	58	1	0	7	13	6	23	5	4054	2830	2864884	0	0	0
-2.3922	8.0823	1	1	53	1	3	0	11	1	28	1	3386	2357	2885888	0	0	0
-2.3922	-1.9177	1	1	30	0	2	0	8	3	32	0	2832	2133	2894984	0	0	0
-2.2922	-1.1177	1	1	40	4	1	0	1	0	21	1	5713	3852	2882024	0	0	0
-2.1922	-0.3177	1	1	32	1	0	1	5	0	27	0	3492	2401	2885516	0	0	0
-2.0922	0.4823	1	1	39	0	2	0	5	0	28	0	3413	2359	2849420	0	0	0
-1.9922	1.2823	1	1	39	1	0	2	1	3	29	2	4118	2852	2885260	0	0	0
-1.8922	2.0823	1	1	43	2	0	0	5	3	37	3	3603	2512	2884156	0	0	0
-1.7922	2.8823	1	1	39	0	0	1	2	0	26	0	3151	2275	2854032	0	0	0
-1.6922	3.6823	1	1	60	0	0	2	1	0	22	0	4592	3205	2881844	0	0	0
-1.5922	4.4823	1	1	36	1	1	2	7	3	45	1	3306	2426	2869648	0	0	0
-1.4922	5.2823	1	1	47	0	2	1	13	2	23	1	3809	2604	2894100	0	0	0
-1.3922	6.0823	1	1	32	2	2	3	23	6	21	3	4534	3143	2901712	0	0	0
[...]
0.9078	4.4823	1	1	29	0	1	3	3	0	31	1	4843	3385	2863832	0	0	0
1.0078	5.2823	1	1	40	1	0	0	4	0	26	0	4036	2898	2886752	0	0	0
1.1078	6.0823	1	1	71	0	1	0	10	3	27	0	3839	2822	2903296	0	0	0
1.2078	6.8823	1	1	54	2	0	0	2	3	22	3	3767	2532	2858756	0	0	0
1.3078	7.6823	1	1	33	1	0	0	1	4	39	2	3859	2822	2822224	0	0	0
1.4078	8.4823	1	1	135675	1248	7784	7055	71924	7508	6361	2982	1616125	1175941	942573796	10	10	10
1.4078	-1.5177	1	1	32	0	1	0	5	1	22	1	2879	2114	2859208	0	0	0
1.5078	-0.7177	1	1	44	1	0	2	3	2	28	2	3934	2649	2899348	0	0	0
1.6078	0.0823	1	1	56	2	2	0	3	1	29	1	4910	3655	2877296	0	0	0
1.7078	0.8823	1	1	37	2	2	0	3	5	20	1	4034	2809	2877008	0	0	0
1.8078	1.6823	1	1	36	2	0	2	1	1	26	1	4420	2993	2871940	0	0	0
1.9078	2.4823	1	1	40	2	0	1	1	0	20	0	4542	3086	2876316	0	0	0
2.0078	3.2823	1	1	45	2	1	2	2	2	19	2	4390	3097	2872196	0	0	0
2.1078	4.0823	1	1	41	1	0	1	2	0	22	0	4384	3007	2902264	0	0	0
2.2078	4.8823	1	1	50	1	3	3	4	1	28	1	5345	3753	2871752	0	0	0
2.3078	5.6823	1	1	58	1	2	1	3	3	19	0	3148	2212	2877828	0	0	0
2.4078	6.4823	1	1	69	1	2	0	3	3	31	0	4208	3027	2856040	0	0	0
2.5078	7.2823	1	1	62	1	1	1	1	3	24	1	5066	3515	2863440	0	0	0
2.6078	8.0823	1	1	109	6	9	5	95	5	28	4	5480	3541	2885008	0	0	0
2.6078	-1.9177	1	1	45	1	0	0	3	0	17	0	2868	1935	2166717	0	0	0
2.7078	-1.1177	1	1	113	3	0	1	1	5	24	4	3425	2504	2878248	0	0	0
2.8078	-0.3177	1	1	87	3	0	2	1	4	31	3	5486	3598	2892936	0	0	0
2.9078	0.4823	1	1	55	4	0	0	2	1	26	1	4721	3319	2862524	0	0	0
3.0078	1.2823	1	1	39	0	0	0	1	1	30	2	4804	3446	2882452	0	0	0
3.1078	2.0823	1	1	42	0	0	1	2	1	19	0	4174	3030	2874652	0	0	0
3.2078	2.8823	1	1	76	0	1	0	4	4	18	1	4789	3324	2870284	0	0	0
3.3078	3.6823	1	1	52	1	0	0	2	3	23	2	4867	3538	2878304	0	0	0
3.4078	4.4823	1	1	54	1	0	0	4	1	25	0	5628	3768	2869860	0	0	0
3.5078	5.2823	1	1	64	1	0	2	1	1	18	0	3810	2513	2880076	0	0	0
3.6078	6.0823	1	1	72	1	0	1	3	3	23	2	5267	3388	2906280	0	0	0
3.7078	6.8823	1	1	57	3	0	1	1	2	28	2	4965	3738	2863524	0	0	0
3.8078	7.6823	1	1	28	0	2	3	3	2	30	0	3297	2310	2834968	0	0	0
3.9078	8.4823	1	1	86427	946	5545	4551	50828	5222	7684	2009	1581109	1133483	968247200	10	10	10
3.9078	-1.5177	1	1	2393	9	12	13	55	96	85	60	6930	5465	2853500	0	0	0
4.0078	-0.7177	1	1	1925	11	8	8	45	76	93	38	6568	5169	2895720	0	0	0
4.1078	0.0823	1	1	61	2	0	3	2	2	29	2	3817	2644	2873352	0	0	0
4.2078	0.8823	1	1	84	0	0	1	3	3	35	3	3859	2718	2892624	0	0	0
4.3078	1.6823	1	1	575	9	3	1	12	23	36	13	3803	2927	2846540	0	0	0
4.4078	2.4823	1	1	1172	5	1	5	38	35	39	24	5203	3929	2874992	0	0	0
4.5078	3.2823	1	1	161	1	0	2	9	7	25	3	4023	2832	2879828	0	0	0
4.6078	4.0823	1	1	56	0	1	1	3	3	23	0	3302	2301	2895512	0	0	0
4.7078	4.8823	1	1	2959	12	10	13	67	102	114	57	7829	6139	2866704	0	0	0
4.8078	5.6823	1	1	3403	19	16	25	72	134	111	93	8147	6429	2879828	0	0	0
4.9078	6.4823	1	1	519	1	0	3	4	14	26	7	3525	2603	2859088	0	0	0
5.0078	7.2823	1	1	62	2	0	0	8	6	27	6	3809	2730	2865988	0	0	0
5.1078	8.0823	1	1	837	4	1	7	16	41	56	20	5675	4002	2885136	0	0	0
5.1078	-1.9177	1	1	1351	6	3	9	26	45	49	23	3589	2889	2173365	0	0	0
5.2078	-1.1177	1	1	2522	15	8	16	62	95	90	47	7002	5559	2871920	0	0	0
5.3078	-0.3177	1	1	541	4	1	5	9	24	38	17	4255	3105	2881448	0	0	0
5.4078	0.4823	1	1	51	1	0	0	0	3	27	1	3931	2678	2860364	0	0	0
5.5078	1.2823	1	1	287	0	1	2	14	12	26	9	3685	2596	2883152	0	0	0
5.6078	2.0823	1	1	1442	6	7	13	32	49	60	37	6250	4749	2883864	0	0	0
5.7078	2.8823	1	1	722	1	4	3	16	23	46	14	3748	2863	2861760	0	0	0
5.8078	3.6823	1	1	66	0	1	0	1	2	21	2	4012	2652	2874584	0	0	0
5.9078	4.4823	1	1	1752	11	5	12	52	55	61	33	5945	4767	2862012	0	0	0
6.0078	5.2823	1	1	3538	12	9	23	75	132	132	84	8265	6713	2880448	0	0	0
6.1078	6.0823	1	1	2389	16	8	16	51	89	73	53	6865	5441	2904912	0	0	0
6.1078	-2.2177	1	1	0	0	0	0	0	0	0	0	0	0	0	0	0	0